Wavelength,Filler,Intensity,
  531.77081,     1.00000, 393210.00000,
  531.84149,     1.00000, 393210.00000,
  531.91216,     1.00000, 168125.00000,
  531.98284,     1.00000, 17131.00000,
  532.05351,     1.00000,  7678.00000,
  532.12417,     1.00000,  5480.00000,
  532.19484,     1.00000,  4351.00000,
  532.26550,     1.00000,  3448.00000,
  532.33617,     1.00000,  2856.00000,
  532.40683,     1.00000,  2365.00000,
  532.47748,     1.00000,  1922.00000,
  532.54814,     1.00000,  1547.00000,
  532.61879,     1.00000,  1342.00000,
  532.68944,     1.00000,  1139.00000,
  532.76009,     1.00000,   950.00000,
  532.83074,     1.00000,   764.00000,
  532.90138,     1.00000,   650.00000,
  532.97202,     1.00000,   584.00000,
  533.04266,     1.00000,   466.00000,
  533.11330,     1.00000,   449.00000,
  533.18393,     1.00000,   332.00000,
  533.25457,     1.00000,   248.00000,
  533.32520,     1.00000,   276.00000,
  533.39583,     1.00000,   229.00000,
  533.46645,     1.00000,   192.00000,
  533.53708,     1.00000,   144.00000,
  533.60770,     1.00000,    86.00000,
  533.67832,     1.00000,    73.00000,
  533.74894,     1.00000,    48.00000,
  533.81955,     1.00000,    60.00000,
  533.89017,     1.00000,    20.00000,
  533.96078,     1.00000,    30.00000,
  534.03139,     1.00000,    10.00000,
  534.10199,     1.00000,     1.00000,
  534.17260,     1.00000,     0.00000,
  534.24320,     1.00000,     0.00000,
  534.31380,     1.00000,     0.00000,
  534.38440,     1.00000,     0.00000,
  534.45499,     1.00000,     5.00000,
  534.52559,     1.00000,     0.00000,
  534.59618,     1.00000,     0.00000,
  534.66677,     1.00000,     0.00000,
  534.73736,     1.00000,     0.00000,
  534.80794,     1.00000,     0.00000,
  534.87852,     1.00000,     0.00000,
  534.94910,     1.00000,     0.00000,
  535.01968,     1.00000,     0.00000,
  535.09026,     1.00000,     0.00000,
  535.16083,     1.00000,     0.00000,
  535.23140,     1.00000,     0.00000,
  535.30197,     1.00000,     0.00000,
  535.37254,     1.00000,     0.00000,
  535.44310,     1.00000,     0.00000,
  535.51367,     1.00000,     0.00000,
  535.58423,     1.00000,     0.00000,
  535.65479,     1.00000,     0.00000,
  535.72534,     1.00000,     0.00000,
  535.79590,     1.00000,     0.00000,
  535.86645,     1.00000,     0.00000,
  535.93700,     1.00000,     0.00000,
  536.00755,     1.00000,     0.00000,
  536.07809,     1.00000,     0.00000,
  536.14863,     1.00000,     0.00000,
  536.21917,     1.00000,     0.00000,
  536.28971,     1.00000,     0.00000,
  536.36025,     1.00000,     0.00000,
  536.43078,     1.00000,     0.00000,
  536.50132,     1.00000,     0.00000,
  536.57185,     1.00000,     0.00000,
  536.64237,     1.00000,     0.00000,
  536.71290,     1.00000,     0.00000,
  536.78342,     1.00000,     0.00000,
  536.85394,     1.00000,     0.00000,
  536.92446,     1.00000,     0.00000,
  536.99498,     1.00000,     0.00000,
  537.06549,     1.00000,     0.00000,
  537.13601,     1.00000,     0.00000,
  537.20652,     1.00000,     0.00000,
  537.27702,     1.00000,     0.00000,
  537.34753,     1.00000,     0.00000,
  537.41803,     1.00000,     0.00000,
  537.48853,     1.00000,     0.00000,
  537.55903,     1.00000,     0.00000,
  537.62953,     1.00000,     0.00000,
  537.70003,     1.00000,     0.00000,
  537.77052,     1.00000,     0.00000,
  537.84101,     1.00000,     0.00000,
  537.91150,     1.00000,     0.00000,
  537.98198,     1.00000,     0.00000,
  538.05247,     1.00000,     0.00000,
  538.12295,     1.00000,     0.00000,
  538.19343,     1.00000,     0.00000,
  538.26390,     1.00000,     0.00000,
  538.33438,     1.00000,     0.00000,
  538.40485,     1.00000,     0.00000,
  538.47532,     1.00000,     0.00000,
  538.54579,     1.00000,     0.00000,
  538.61626,     1.00000,     0.00000,
  538.68672,     1.00000,     0.00000,
  538.75718,     1.00000,     0.00000,
  538.82764,     1.00000,     0.00000,
  538.89810,     1.00000,     0.00000,
  538.96855,     1.00000,     0.00000,
  539.03901,     1.00000,     0.00000,
  539.10946,     1.00000,     0.00000,
  539.17991,     1.00000,     0.00000,
  539.25035,     1.00000,     0.00000,
  539.32080,     1.00000,     0.00000,
  539.39124,     1.00000,     0.00000,
  539.46168,     1.00000,     0.00000,
  539.53212,     1.00000,     0.00000,
  539.60255,     1.00000,     0.00000,
  539.67299,     1.00000,     0.00000,
  539.74342,     1.00000,     0.00000,
  539.81385,     1.00000,     0.00000,
  539.88427,     1.00000,     6.00000,
  539.95470,     1.00000,    52.00000,
  540.02512,     1.00000,   189.00000,
  540.09554,     1.00000,   192.00000,
  540.16596,     1.00000,   256.00000,
  540.23637,     1.00000,   227.00000,
  540.30679,     1.00000,   146.00000,
  540.37720,     1.00000,    53.00000,
  540.44761,     1.00000,     0.00000,
  540.51801,     1.00000,    35.00000,
  540.58842,     1.00000,     0.00000,
  540.65882,     1.00000,    15.00000,
  540.72922,     1.00000,     2.00000,
  540.79962,     1.00000,    16.00000,
  540.87001,     1.00000,    28.00000,
  540.94041,     1.00000,    39.00000,
  541.01080,     1.00000,    66.00000,
  541.08119,     1.00000,   114.00000,
  541.15158,     1.00000,   198.00000,
  541.22196,     1.00000,   258.00000,
  541.29234,     1.00000,   346.00000,
  541.36272,     1.00000,   463.00000,
  541.43310,     1.00000,   701.00000,
  541.50348,     1.00000,   970.00000,
  541.57385,     1.00000,  1314.00000,
  541.64422,     1.00000,  2102.00000,
  541.71459,     1.00000,  3047.00000,
  541.78496,     1.00000,  4515.00000,
  541.85533,     1.00000,  5630.00000,
  541.92569,     1.00000,  5345.00000,
  541.99605,     1.00000,  4034.00000,
  542.06641,     1.00000,  2736.00000,
  542.13677,     1.00000,  2089.00000,
  542.20712,     1.00000,  1714.00000,
  542.27747,     1.00000,  1432.00000,
  542.34782,     1.00000,  1247.00000,
  542.41817,     1.00000,  1134.00000,
  542.48851,     1.00000,  1083.00000,
  542.55886,     1.00000,  1035.00000,
  542.62920,     1.00000,  1022.00000,
  542.69954,     1.00000,  1035.00000,
  542.76987,     1.00000,  1015.00000,
  542.84021,     1.00000,  1007.00000,
  542.91054,     1.00000,  1062.00000,
  542.98087,     1.00000,  1096.00000,
  543.05120,     1.00000,  1113.00000,
  543.12152,     1.00000,  1160.00000,
  543.19185,     1.00000,  1212.00000,
  543.26217,     1.00000,  1199.00000,
  543.33249,     1.00000,  1262.00000,
  543.40280,     1.00000,  1274.00000,
  543.47312,     1.00000,  1355.00000,
  543.54343,     1.00000,  1372.00000,
  543.61374,     1.00000,  1316.00000,
  543.68405,     1.00000,  1379.00000,
  543.75436,     1.00000,  1428.00000,
  543.82466,     1.00000,  1429.00000,
  543.89496,     1.00000,  1424.00000,
  543.96526,     1.00000,  1439.00000,
  544.03556,     1.00000,  1446.00000,
  544.10585,     1.00000,  1479.00000,
  544.17614,     1.00000,  1590.00000,
  544.24643,     1.00000,  1650.00000,
  544.31672,     1.00000,  1852.00000,
  544.38701,     1.00000,  2086.00000,
  544.45729,     1.00000,  2648.00000,
  544.52757,     1.00000,  3982.00000,
  544.59785,     1.00000,  7168.00000,
  544.66813,     1.00000, 12919.00000,
  544.73841,     1.00000, 21665.00000,
  544.80868,     1.00000, 31781.00000,
  544.87895,     1.00000, 38386.00000,
  544.94922,     1.00000, 33404.00000,
  545.01948,     1.00000, 18689.00000,
  545.08975,     1.00000,  6361.00000,
  545.16001,     1.00000,  3335.00000,
  545.23027,     1.00000,  2845.00000,
  545.30053,     1.00000,  2901.00000,
  545.37078,     1.00000,  2990.00000,
  545.44104,     1.00000,  2974.00000,
  545.51129,     1.00000,  2537.00000,
  545.58154,     1.00000,  2236.00000,
  545.65178,     1.00000,  1940.00000,
  545.72203,     1.00000,  1770.00000,
  545.79227,     1.00000,  1573.00000,
  545.86251,     1.00000,  1591.00000,
  545.93275,     1.00000,  1760.00000,
  546.00298,     1.00000,  1760.00000,
  546.07322,     1.00000,  1535.00000,
  546.14345,     1.00000,  1556.00000,
  546.21368,     1.00000,  1448.00000,
  546.28390,     1.00000,  1429.00000,
  546.35413,     1.00000,  1450.00000,
  546.42435,     1.00000,  1514.00000,
  546.49457,     1.00000,  1594.00000,
  546.56479,     1.00000,  1804.00000,
  546.63500,     1.00000,  2318.00000,
  546.70522,     1.00000,  3586.00000,
  546.77543,     1.00000,  5188.00000,
  546.84564,     1.00000,  4704.00000,
  546.91584,     1.00000,  2824.00000,
  546.98605,     1.00000,  1908.00000,
  547.05625,     1.00000,  1539.00000,
  547.12645,     1.00000,  1420.00000,
  547.19665,     1.00000,  1351.00000,
  547.26685,     1.00000,  1328.00000,
  547.33704,     1.00000,  1247.00000,
  547.40723,     1.00000,  1240.00000,
  547.47742,     1.00000,  1129.00000,
  547.54761,     1.00000,  1185.00000,
  547.61779,     1.00000,  1120.00000,
  547.68798,     1.00000,  1175.00000,
  547.75816,     1.00000,  1092.00000,
  547.82834,     1.00000,  1100.00000,
  547.89851,     1.00000,  1131.00000,
  547.96869,     1.00000,  1119.00000,
  548.03886,     1.00000,  1095.00000,
  548.10903,     1.00000,  1088.00000,
  548.17919,     1.00000,  1142.00000,
  548.24936,     1.00000,  1232.00000,
  548.31952,     1.00000,  1208.00000,
  548.38968,     1.00000,  1259.00000,
  548.45984,     1.00000,  1292.00000,
  548.53000,     1.00000,  1320.00000,
  548.60015,     1.00000,  1383.00000,
  548.67031,     1.00000,  1364.00000,
  548.74046,     1.00000,  1395.00000,
  548.81060,     1.00000,  1386.00000,
  548.88075,     1.00000,  1323.00000,
  548.95089,     1.00000,  1367.00000,
  549.02103,     1.00000,  1252.00000,
  549.09117,     1.00000,  1285.00000,
  549.16131,     1.00000,  1218.00000,
  549.23144,     1.00000,  1220.00000,
  549.30158,     1.00000,  1166.00000,
  549.37171,     1.00000,  1140.00000,
  549.44183,     1.00000,  1116.00000,
  549.51196,     1.00000,  1148.00000,
  549.58208,     1.00000,  1121.00000,
  549.65220,     1.00000,  1117.00000,
  549.72232,     1.00000,  1078.00000,
  549.79244,     1.00000,  1118.00000,
  549.86256,     1.00000,  1052.00000,
  549.93267,     1.00000,  1100.00000,
  550.00278,     1.00000,   990.00000,
  550.07289,     1.00000,  1071.00000,
  550.14299,     1.00000,  1021.00000,
  550.21310,     1.00000,  1056.00000,
  550.28320,     1.00000,  1037.00000,
  550.35330,     1.00000,  1021.00000,
  550.42339,     1.00000,   996.00000,
  550.49349,     1.00000,  1009.00000,
  550.56358,     1.00000,  1025.00000,
  550.63367,     1.00000,  1013.00000,
  550.70376,     1.00000,   959.00000,
  550.77385,     1.00000,  1009.00000,
  550.84393,     1.00000,  1002.00000,
  550.91401,     1.00000,  1047.00000,
  550.98409,     1.00000,  1010.00000,
  551.05417,     1.00000,   992.00000,
  551.12425,     1.00000,   992.00000,
  551.19432,     1.00000,  1038.00000,
  551.26439,     1.00000,   972.00000,
  551.33446,     1.00000,  1025.00000,
  551.40452,     1.00000,  1037.00000,
  551.47459,     1.00000,  1103.00000,
  551.54465,     1.00000,  1014.00000,
  551.61471,     1.00000,  1046.00000,
  551.68477,     1.00000,  1032.00000,
  551.75482,     1.00000,   985.00000,
  551.82488,     1.00000,   992.00000,
  551.89493,     1.00000,  1039.00000,
  551.96498,     1.00000,  1098.00000,
  552.03502,     1.00000,  1040.00000,
  552.10507,     1.00000,  1012.00000,
  552.17511,     1.00000,   992.00000,
  552.24515,     1.00000,  1024.00000,
  552.31519,     1.00000,  1040.00000,
  552.38522,     1.00000,  1004.00000,
  552.45526,     1.00000,   972.00000,
  552.52529,     1.00000,  1011.00000,
  552.59532,     1.00000,  1002.00000,
  552.66534,     1.00000,   957.00000,
  552.73537,     1.00000,   987.00000,
  552.80539,     1.00000,  1000.00000,
  552.87541,     1.00000,   993.00000,
  552.94543,     1.00000,   946.00000,
  553.01545,     1.00000,  1017.00000,
  553.08546,     1.00000,  1009.00000,
  553.15547,     1.00000,  1022.00000,
  553.22548,     1.00000,  1016.00000,
  553.29549,     1.00000,   977.00000,
  553.36549,     1.00000,  1005.00000,
  553.43550,     1.00000,  1012.00000,
  553.50550,     1.00000,  1060.00000,
  553.57549,     1.00000,  1032.00000,
  553.64549,     1.00000,  1066.00000,
  553.71548,     1.00000,   987.00000,
  553.78548,     1.00000,  1049.00000,
  553.85547,     1.00000,  1021.00000,
  553.92545,     1.00000,  1023.00000,
  553.99544,     1.00000,  1048.00000,
  554.06542,     1.00000,  1058.00000,
  554.13540,     1.00000,  1052.00000,
  554.20538,     1.00000,  1086.00000,
  554.27536,     1.00000,  1097.00000,
  554.34533,     1.00000,  1037.00000,
  554.41530,     1.00000,  1085.00000,
  554.48527,     1.00000,  1112.00000,
  554.55524,     1.00000,  1082.00000,
  554.62521,     1.00000,  1098.00000,
  554.69517,     1.00000,  1122.00000,
  554.76513,     1.00000,  1107.00000,
  554.83509,     1.00000,  1081.00000,
  554.90505,     1.00000,  1172.00000,
  554.97500,     1.00000,  1119.00000,
  555.04495,     1.00000,  1165.00000,
  555.11490,     1.00000,  1117.00000,
  555.18485,     1.00000,  1113.00000,
  555.25480,     1.00000,  1058.00000,
  555.32474,     1.00000,  1082.00000,
  555.39468,     1.00000,  1044.00000,
  555.46462,     1.00000,  1059.00000,
  555.53456,     1.00000,  1024.00000,
  555.60449,     1.00000,  1034.00000,
  555.67442,     1.00000,  1056.00000,
  555.74435,     1.00000,  1028.00000,
  555.81428,     1.00000,  1052.00000,
  555.88421,     1.00000,  1036.00000,
  555.95413,     1.00000,  1070.00000,
  556.02405,     1.00000,  1112.00000,
  556.09397,     1.00000,  1046.00000,
  556.16389,     1.00000,  1034.00000,
  556.23380,     1.00000,  1088.00000,
  556.30372,     1.00000,  1090.00000,
  556.37363,     1.00000,  1074.00000,
  556.44353,     1.00000,  1061.00000,
  556.51344,     1.00000,  1167.00000,
  556.58334,     1.00000,  1082.00000,
  556.65325,     1.00000,  1106.00000,
  556.72315,     1.00000,  1106.00000,
  556.79304,     1.00000,  1095.00000,
  556.86294,     1.00000,  1074.00000,
  556.93283,     1.00000,  1083.00000,
  557.00272,     1.00000,  1107.00000,
  557.07261,     1.00000,  1108.00000,
  557.14250,     1.00000,  1048.00000,
  557.21238,     1.00000,  1102.00000,
  557.28226,     1.00000,  1077.00000,
  557.35214,     1.00000,  1076.00000,
  557.42202,     1.00000,  1064.00000,
  557.49190,     1.00000,  1020.00000,
  557.56177,     1.00000,  1041.00000,
  557.63164,     1.00000,  1054.00000,
  557.70151,     1.00000,  1099.00000,
  557.77138,     1.00000,  1058.00000,
  557.84124,     1.00000,  1046.00000,
  557.91110,     1.00000,  1106.00000,
  557.98096,     1.00000,  1047.00000,
  558.05082,     1.00000,  1061.00000,
  558.12068,     1.00000,  1034.00000,
  558.19053,     1.00000,  1051.00000,
  558.26038,     1.00000,  1080.00000,
  558.33023,     1.00000,  1059.00000,
  558.40008,     1.00000,  1059.00000,
  558.46992,     1.00000,  1025.00000,
  558.53976,     1.00000,  1067.00000,
  558.60960,     1.00000,  1088.00000,
  558.67944,     1.00000,  1042.00000,
  558.74928,     1.00000,  1057.00000,
  558.81911,     1.00000,  1018.00000,
  558.88894,     1.00000,  1105.00000,
  558.95877,     1.00000,  1122.00000,
  559.02860,     1.00000,  1096.00000,
  559.09842,     1.00000,  1141.00000,
  559.16825,     1.00000,  1124.00000,
  559.23807,     1.00000,  1109.00000,
  559.30788,     1.00000,  1147.00000,
  559.37770,     1.00000,  1123.00000,
  559.44751,     1.00000,  1096.00000,
  559.51733,     1.00000,  1130.00000,
  559.58713,     1.00000,  1112.00000,
  559.65694,     1.00000,  1084.00000,
  559.72675,     1.00000,  1120.00000,
  559.79655,     1.00000,  1110.00000,
  559.86635,     1.00000,  1120.00000,
  559.93615,     1.00000,  1151.00000,
  560.00595,     1.00000,  1108.00000,
  560.07574,     1.00000,  1084.00000,
  560.14553,     1.00000,  1070.00000,
  560.21532,     1.00000,  1160.00000,
  560.28511,     1.00000,  1105.00000,
  560.35489,     1.00000,  1132.00000,
  560.42468,     1.00000,  1160.00000,
  560.49446,     1.00000,  1157.00000,
  560.56424,     1.00000,  1036.00000,
  560.63401,     1.00000,  1150.00000,
  560.70379,     1.00000,  1138.00000,
  560.77356,     1.00000,  1104.00000,
  560.84333,     1.00000,  1099.00000,
  560.91310,     1.00000,  1098.00000,
  560.98286,     1.00000,  1133.00000,
  561.05263,     1.00000,  1129.00000,
  561.12239,     1.00000,  1140.00000,
  561.19215,     1.00000,  1112.00000,
  561.26190,     1.00000,  1126.00000,
  561.33166,     1.00000,  1111.00000,
  561.40141,     1.00000,  1096.00000,
  561.47116,     1.00000,  1188.00000,
  561.54091,     1.00000,  1202.00000,
  561.61065,     1.00000,  1166.00000,
  561.68040,     1.00000,  1180.00000,
  561.75014,     1.00000,  1184.00000,
  561.81988,     1.00000,  1239.00000,
  561.88961,     1.00000,  1289.00000,
  561.95935,     1.00000,  1225.00000,
  562.02908,     1.00000,  1213.00000,
  562.09881,     1.00000,  1172.00000,
  562.16854,     1.00000,  1177.00000,
  562.23827,     1.00000,  1192.00000,
  562.30799,     1.00000,  1200.00000,
  562.37771,     1.00000,  1325.00000,
  562.44743,     1.00000,  1494.00000,
  562.51715,     1.00000,  1779.00000,
  562.58686,     1.00000,  1999.00000,
  562.65658,     1.00000,  1730.00000,
  562.72629,     1.00000,  1423.00000,
  562.79600,     1.00000,  1245.00000,
  562.86570,     1.00000,  1234.00000,
  562.93541,     1.00000,  1151.00000,
  563.00511,     1.00000,  1133.00000,
  563.07481,     1.00000,  1213.00000,
  563.14450,     1.00000,  1197.00000,
  563.21420,     1.00000,  1171.00000,
  563.28389,     1.00000,  1085.00000,
  563.35358,     1.00000,  1132.00000,
  563.42327,     1.00000,  1179.00000,
  563.49296,     1.00000,  1145.00000,
  563.56264,     1.00000,  1168.00000,
  563.63233,     1.00000,  1188.00000,
  563.70201,     1.00000,  1162.00000,
  563.77168,     1.00000,  1164.00000,
  563.84136,     1.00000,  1171.00000,
  563.91103,     1.00000,  1078.00000,
  563.98070,     1.00000,  1153.00000,
  564.05037,     1.00000,  1163.00000,
  564.12004,     1.00000,  1194.00000,
  564.18970,     1.00000,  1156.00000,
  564.25936,     1.00000,  1171.00000,
  564.32903,     1.00000,  1169.00000,
  564.39868,     1.00000,  1174.00000,
  564.46834,     1.00000,  1183.00000,
  564.53799,     1.00000,  1193.00000,
  564.60764,     1.00000,  1252.00000,
  564.67729,     1.00000,  1257.00000,
  564.74694,     1.00000,  1170.00000,
  564.81658,     1.00000,  1202.00000,
  564.88623,     1.00000,  1126.00000,
  564.95587,     1.00000,  1173.00000,
  565.02551,     1.00000,  1205.00000,
  565.09514,     1.00000,  1207.00000,
  565.16477,     1.00000,  1152.00000,
  565.23441,     1.00000,  1158.00000,
  565.30404,     1.00000,  1159.00000,
  565.37366,     1.00000,  1210.00000,
  565.44329,     1.00000,  1188.00000,
  565.51291,     1.00000,  1180.00000,
  565.58253,     1.00000,  1153.00000,
  565.65215,     1.00000,  1163.00000,
  565.72177,     1.00000,  1183.00000,
  565.79138,     1.00000,  1133.00000,
  565.86099,     1.00000,  1144.00000,
  565.93060,     1.00000,  1175.00000,
  566.00021,     1.00000,  1167.00000,
  566.06981,     1.00000,  1187.00000,
  566.13942,     1.00000,  1140.00000,
  566.20902,     1.00000,  1202.00000,
  566.27862,     1.00000,  1151.00000,
  566.34821,     1.00000,  1161.00000,
  566.41781,     1.00000,  1191.00000,
  566.48740,     1.00000,  1157.00000,
  566.55699,     1.00000,  1144.00000,
  566.62658,     1.00000,  1178.00000,
  566.69616,     1.00000,  1177.00000,
  566.76574,     1.00000,  1171.00000,
  566.83533,     1.00000,  1176.00000,
  566.90490,     1.00000,  1160.00000,
  566.97448,     1.00000,  1188.00000,
  567.04406,     1.00000,  1240.00000,
  567.11363,     1.00000,  1196.00000,
  567.18320,     1.00000,  1214.00000,
  567.25277,     1.00000,  1237.00000,
  567.32233,     1.00000,  1215.00000,
  567.39190,     1.00000,  1193.00000,
  567.46146,     1.00000,  1230.00000,
  567.53102,     1.00000,  1250.00000,
  567.60057,     1.00000,  1215.00000,
  567.67013,     1.00000,  1247.00000,
  567.73968,     1.00000,  1267.00000,
  567.80923,     1.00000,  1219.00000,
  567.87878,     1.00000,  1228.00000,
  567.94832,     1.00000,  1266.00000,
  568.01787,     1.00000,  1205.00000,
  568.08741,     1.00000,  1228.00000,
  568.15695,     1.00000,  1289.00000,
  568.22649,     1.00000,  1265.00000,
  568.29602,     1.00000,  1218.00000,
  568.36555,     1.00000,  1214.00000,
  568.43508,     1.00000,  1236.00000,
  568.50461,     1.00000,  1264.00000,
  568.57414,     1.00000,  1273.00000,
  568.64366,     1.00000,  1236.00000,
  568.71318,     1.00000,  1193.00000,
  568.78270,     1.00000,  1203.00000,
  568.85222,     1.00000,  1200.00000,
  568.92174,     1.00000,  1193.00000,
  568.99125,     1.00000,  1290.00000,
  569.06076,     1.00000,  1239.00000,
  569.13027,     1.00000,  1190.00000,
  569.19977,     1.00000,  1220.00000,
  569.26928,     1.00000,  1255.00000,
  569.33878,     1.00000,  1231.00000,
  569.40828,     1.00000,  1222.00000,
  569.47778,     1.00000,  1173.00000,
  569.54727,     1.00000,  1245.00000,
  569.61677,     1.00000,  1292.00000,
  569.68626,     1.00000,  1233.00000,
  569.75575,     1.00000,  1244.00000,
  569.82523,     1.00000,  1224.00000,
  569.89472,     1.00000,  1215.00000,
  569.96420,     1.00000,  1241.00000,
  570.03368,     1.00000,  1225.00000,
  570.10316,     1.00000,  1251.00000,
  570.17263,     1.00000,  1269.00000,
  570.24211,     1.00000,  1302.00000,
  570.31158,     1.00000,  1246.00000,
  570.38105,     1.00000,  1252.00000,
  570.45051,     1.00000,  1255.00000,
  570.51998,     1.00000,  1280.00000,
  570.58944,     1.00000,  1283.00000,
  570.65890,     1.00000,  1264.00000,
  570.72836,     1.00000,  1264.00000,
  570.79781,     1.00000,  1264.00000,
  570.86727,     1.00000,  1297.00000,
  570.93672,     1.00000,  1310.00000,
  571.00617,     1.00000,  1295.00000,
  571.07562,     1.00000,  1247.00000,
  571.14506,     1.00000,  1329.00000,
  571.21450,     1.00000,  1198.00000,
  571.28394,     1.00000,  1278.00000,
  571.35338,     1.00000,  1284.00000,
  571.42282,     1.00000,  1322.00000,
  571.49225,     1.00000,  1286.00000,
  571.56168,     1.00000,  1340.00000,
  571.63111,     1.00000,  1198.00000,
  571.70054,     1.00000,  1220.00000,
  571.76997,     1.00000,  1257.00000,
  571.83939,     1.00000,  1289.00000,
  571.90881,     1.00000,  1311.00000,
  571.97823,     1.00000,  1260.00000,
  572.04764,     1.00000,  1577.00000,
